Folder: Final-Project-Helmet-Foam

File: clean_data.csv
"","SampleCode","strain","Stress_kPa","Relporo","freq","amp","E1_MPA","tandelta","Estatic_MPA","NVP","Cycle","Time","ChemIndex","Porosity"
"1","98A_100_71_107",-0.291333,-110.362,59.078,0.5,0.0240391,1.16013,0.268627,0.378879,0.0543055,"Cyc_A",0,100,71
"12","98A_100_71_107",-0.291333,-110.362,59.078,0.5,0.0240391,1.10261,0.232812,0.26628,0.0565457,"Cyc_L",20000,100,71
"23","98A_100_71_118",-0.291336,-99.2925,59.0779,0.3,0.0247185,1.04175,0.215528,0.269782,0.0541862,"Cyc_I",9000,100,71
"34","98A_100_71_125",-0.291359,-116.382,59.0777,10.0077,0.0231092,1.20042,0.801237,0.322486,0.0756566,"Cyc_I",9000,100,71
"45","98A_100_71_126",-0.291336,-99.9612,59.0779,0.4,0.0240615,0.977595,0.226373,0.268214,0.0536483,"Cyc_G",7000,100,71
"56","98A_100_71_154",-0.692916,-111.278,5.56236,0.5,0.0244461,-1.13337,0.244051,0.137069,0.0592388,"Cyc_D",750,100,71
"67","98A_100_81_105",-0.527559,-11.3092,59.7833,0.5,0.0240538,0.128138,0.300413,0.0214369,0.0794049,"Cyc_A",0,100,81
"78","98A_100_81_105",-0.527559,-11.3092,59.7833,0.5,0.0240538,0.118247,0.268885,0.0148698,0.0838902,"Cyc_L",20000,100,81
"89","98A_100_81_127",-0.527579,-11.2866,59.7832,10,0.023121,0.111898,1.19169,0.0185861,0.0911847,"Cyc_D",4000,100,81
"100","98A_100_81_150",-0.527583,-11.2476,59.7818,15.2778,0.0759666,0.0725727,1.96872,0.0197243,0.22441,"Cyc_D",750,100,81
"111","98A_100_81_151",-0.527573,-10.1287,59.7828,14.9967,0.0222099,0.0729843,2.14378,0.0191904,0.0931162,"Cyc_A",0,100,81
"122","98A_100_81_151",-0.527573,-10.1287,59.7828,14.9967,0.0222099,0.0698263,2.19342,0.0166099,0.0922518,"Cyc_L",8000,100,81
"133","98A_100_81_152",-0.52756,-9.75686,59.7832,15.0034,0.046111,0.160735,0.482202,0.0160511,0.108307,"Cyc_I",5000,100,81
"144","98A_100_81_153",-0.527575,-10.2146,59.7827,20,0.0225904,0.071315,3.09321,0.0180409,0.0536981,"Cyc_F",2000,100,81
"155","98A_100_81_156",-0.456692,-12.2859,65.0289,0.5,0.0243417,-0.158783,0.25278,0.0231654,0.115644,"Cyc_C",500,100,81
"166","98A_100_81_156",-0.456692,-12.2859,65.0289,0.5,0.0243417,-0.152732,0.23968,0.0188623,0.116704,"Cyc_N",10000,100,81
"177","98A_121_71_109",-0.291337,-157.581,59.078,0.5,0.0241786,2.95344,0.20785,0.484895,0.0743763,"Cyc_K",15000,121,71
"188","98A_121_71_111",-0.291335,-212.688,59.0781,0.5,0.0242003,2.95022,0.216509,0.537858,0.0655776,"Cyc_H",8000,121,71
"199","98A_121_71_128",-0.291331,-157.496,59.078,0.02,0.0248128,2.16495,0.188417,0.418086,0.0620363,"Cyc_I",9000,121,71
"210","98A_121_71_129",-0.291348,-189.576,59.0779,10.0056,0.0229952,2.29222,0.769036,0.498786,0.0781065,"Cyc_J",10000,121,71
"221","98A_121_71_141",-0.692917,-174.217,5.56305,0.5,0.0240892,-2.29676,0.256946,0.251432,0.0583755,"Cyc_A",0,121,71
"232","98A_121_71_141",-0.692917,-174.217,5.56305,0.5,0.0240892,-2.18744,0.224008,0.184789,0.0651086,"Cyc_L",8000,121,71
"243","98A_121_71_143",-0.291334,-186.765,59.0781,2,0.0245695,2.48395,0.308694,0.49306,0.065882,"Cyc_I",5000,121,71
"254","98A_121_71_145",-0.291445,-209.552,58.7294,15.25,0.0227839,2.2705,1.19523,0.618704,0.0721131,"Cyc_F",2000,121,71
"265","98A_121_71_159",-0.527333,-16.3616,38.6528,0.5,0.0237069,0.222036,0.217392,0.0245807,0.0931209,"Cyc_C",3000,121,71
"276","98A_121_71_168",-0.291353,-240.189,59.0784,15.0071,0.0378597,3.40728,0.261869,0.757901,0.0864112,"Cyc_B",250,121,71
"287","98A_121_71_168",-0.291353,-240.189,59.0784,15.0071,0.0378597,2.85843,0.250071,0.580077,0.093309,"Cyc_M",9000,121,71
"298","98A_121_71_178",-0.285645,-182.474,59.4038,0.5,0.024181,NA,0.253724,0.51108,0.0613519,"Cyc_E",1050,121,71
"309","98A_121_71_180",-0.29129,-196.344,59.0817,0.5,0.0239981,2.61575,0.249507,0.496738,0.0607328,"Cyc_F",2050,121,71
"320","98A_121_71_183",-0.291274,-161.107,59.0817,0.5,0.0239322,2.38033,0.257399,0.455641,0.0582911,"Cyc_C",500,121,71
"331","98A_121_71_183",-0.291274,-161.107,59.0817,0.5,0.0239322,2.42081,0.236695,0.414989,0.0604627,"Cyc_N",10050,121,71
"342","98A_121_81_103",-0.527559,-22.5936,59.7833,0.5,0.0244763,0.301417,0.212587,0.0296024,0.0948056,"Cyc_K",20000,121,81
"353","98A_121_81_108",-0.527558,-23.105,59.7832,10,0.0230544,0.416352,0.303835,0.034968,0.122958,"Cyc_J",9900,121,81
"364","98A_121_81_112",-0.527562,-19.879,59.783,5,0.0239644,0.285279,0.311196,0.0293759,0.106656,"Cyc_G",7000,121,81
"375","98A_121_81_122",-0.527556,-17.7432,59.7833,0.1,0.0242687,0.215166,0.195676,0.0263434,0.0895636,"Cyc_D",4000,121,81
"386","98A_121_81_142",-0.456693,-20.6078,65.0289,0.5,0.0245301,-0.278454,0.286618,0.0330974,0.109202,"Cyc_I",5000,121,81
"397","98A_121_81_147",-0.29133,-18.0607,73.1886,15,0.0222133,0.195557,1.3541,0.0550272,0.063612,"Cyc_F",2000,121,81
"408","98A_121_81_148",-0.527558,-21.1748,59.7834,15.0017,0.0224861,0.379763,0.325492,0.0378782,0.0872979,"Cyc_C",500,121,81
"419","98A_121_81_148",-0.527558,-21.1748,59.7834,15.0017,0.0224861,0.365395,0.323286,0.0323329,0.0922334,"Cyc_N",10000,121,81
"430","98A_121_81_149",-0.763779,-57.2576,19.5655,15,0.0228038,1.12446,1.21805,0.056823,0.211444,"Cyc_K",7000,121,81
"441","98A_121_81_166",-0.527561,-25.2086,59.7834,9.99286,0.0780576,0.256234,0.430572,0.0351442,0.205982,"Cyc_H",4000,121,81
"452","98A_121_81_170",-0.527565,-25.7886,59.7843,10,0.0235526,0.473545,0.299586,0.0435432,0.126421,"Cyc_E",1000,121,81
"463","98A_79_71_106",-0.291338,-62.7996,59.0779,0.5,0.0241288,0.526396,0.255857,0.183241,0.0484756,"Cyc_B",2000,79,71
"474","98A_79_71_106",-0.291338,-62.7996,59.0779,0.5,0.0241288,0.537094,0.243598,0.162511,0.0447228,"Cyc_M",25000,79,71
"485","98A_79_71_115",-0.291336,-59.2402,59.0778,0.5,0.0246157,0.472056,0.243388,0.158308,0.0459698,"Cyc_J",10000,79,71
"496","98A_79_71_116",-0.291341,-62.4512,59.0779,10,0.0238214,0.549489,0.87328,0.182283,0.0744376,"Cyc_K",12500,79,71
"507","98A_79_71_117",-0.29134,-62.4717,59.0777,5,0.0252721,0.614099,0.560278,0.181449,0.0650168,"Cyc_H",8000,79,71
"518","98A_79_71_119",-0.291339,-61.8452,59.0779,2,0.0253821,0.561678,0.387962,0.177271,0.0545054,"Cyc_E",5000,79,71
"529","98A_79_71_134",-0.290698,-54.2557,59.1129,0.5,0.02368,0.418372,0.244917,0.161163,0.0396689,"Cyc_B",2000,79,71
"540","98A_79_71_137",-0.291331,-58.8362,59.0773,14.9957,0.0223374,0.435942,1.34178,0.181366,0.0590231,"Cyc_H",4000,79,71
"551","98A_79_71_139",-0.692913,-56.673,5.56349,0.5,0.0242818,-0.423817,0.253135,0.0711821,0.0468604,"Cyc_E",1000,79,71
"562","98A_79_71_140",-0.29134,-60.1688,59.0776,15.0026,0.0146732,0.461129,1.32111,0.203574,0.0587406,"Cyc_B",250,79,71
"573","98A_79_71_140",-0.29134,-60.1688,59.0776,15.0026,0.0146732,0.459236,1.31097,0.182202,0.0584048,"Cyc_M",9000,79,71
"584","98A_79_71_144",-0.291337,-57.7204,59.0777,2,0.0257442,0.472822,0.39109,0.164299,0.0585422,"Cyc_J",6000,79,71
"595","98A_79_71_146",-0.291438,-61.7674,58.7271,15,0.0224086,0.435975,1.33336,0.194201,0.0565746,"Cyc_G",3000,79,71
"606","98A_79_71_167",-0.291304,-70.5579,59.0802,10,0.0780123,0.423717,0.929023,0.221032,0.121708,"Cyc_D",750,79,71
"617","98A_79_71_169",-0.291351,-70.4544,59.0778,15,0.0150654,0.970675,0.28686,0.241621,0.0660608,"Cyc_A",0,79,71
"628","98A_79_71_169",-0.291351,-70.4544,59.0778,15,0.0150654,0.937333,0.28495,0.210665,0.069149,"Cyc_L",8000,79,71
"639","98A_79_71_171",-0.291325,-70.4474,59.0805,10,0.0791577,0.409146,0.921823,0.200706,0.132742,"Cyc_I",5000,79,71
"650","98A_79_71_172",-0.291307,-59.5383,59.0804,10,0.0790877,0.399476,0.930457,0.194111,0.129847,"Cyc_F",2000,79,71
"661","98A_79_71_175",-0.291274,-69.3642,59.082,0.5,0.0242139,0.589948,0.260446,0.207462,0.0478832,"Cyc_C",500,79,71
"672","98A_79_71_175",-0.291274,-69.3642,59.082,0.5,0.0242139,0.613631,0.245959,0.18104,0.0481311,"Cyc_N",10050,79,71
"683","98A_79_81_100",-0.52756,-6.26391,59.7834,0.53125,0.0255496,0.0526223,0.294261,0.00992336,0.059261,"Cyc_F",6000,79,81
"694","98A_79_81_104",-0.527558,-6.80132,59.7836,0.5,0.0241523,0.0621778,0.288402,0.0106018,0.0599872,"Cyc_C",3000,79,81
"705","98A_79_81_104",-0.527558,-6.80132,59.7836,0.5,0.0241523,0.0638624,0.276658,0.0100685,0.0539098,"Cyc_N",30000,79,81
"716","98A_79_81_113",-0.52756,-5.40974,59.7832,0.5,0.0242588,0.0517895,0.403143,0.00753341,0.0586758,"Cyc_K",15000,79,81
"727","98A_79_81_114",-0.448819,-4.23831,65.5285,0.5,0.0243006,0.0406106,0.359287,0.00732935,0.0418425,"Cyc_K",15000,79,81
"738","98A_79_81_120",-0.44882,-4.68303,65.5286,2,0.0243196,0.0422278,0.515655,0.00859399,0.0445288,"Cyc_J",10000,79,81
"749","98A_79_81_123",-0.527568,-5.73014,59.7832,10,0.0231555,0.115068,0.538057,0.00936468,0.0759391,"Cyc_K",12500,79,81
"760","98A_79_81_124",-0.527565,-5.85974,59.7833,5,0.0240438,0.0795028,0.937314,0.00953773,0.079931,"Cyc_H",8000,79,81
"771","98A_79_81_131",-0.527559,-5.89325,59.7835,2,0.0242882,0.0722899,0.711164,0.00919658,0.0693245,"Cyc_I",9000,79,81
"782","98A_79_81_133",-0.5272,-5.49441,59.8435,10.7937,0.0234343,0.0863521,0.784738,0.00936235,0.0612158,"Cyc_F",6000,79,81
"793","98A_79_81_136",-0.4567,-6.31404,65.0289,0.5,0.0244154,-0.0697082,0.284357,0.0122979,0.0687984,"Cyc_C",500,79,81
"804","98A_79_81_138",-0.456692,-6.07568,65.0289,0.5,0.0241396,-0.0757907,0.268819,0.0112984,0.0706989,"Cyc_I",5000,79,81
"815","98A_79_81_155",-0.456692,-7.60835,65.029,0.5,0.0247703,-0.0958733,0.260679,0.0137829,0.0842982,"Cyc_F",2000,79,81
"826","98A_79_81_173",-0.527571,-6.75356,59.7827,10,0.0243378,0.112175,0.646402,0.0122053,0.104891,"Cyc_C",500,79,81
"837","98A_79_81_173",-0.527571,-6.75356,59.7827,10,0.0243378,0.112417,0.629835,0.0107733,0.106843,"Cyc_N",10000,79,81
"848","98A_79_81_174",-0.527568,-6.45388,59.784,10,0.024475,0.125212,0.577763,0.0105982,0.0978962,"Cyc_K",7000,79,81
"851","98A_79_81_174",-0.527568,-6.45388,59.784,10,0.024475,0.125805,0.560777,0.0104417,0.0911668,"Cyc_N",10000,79,81